Timestamp (s),Voltage (V), Capacitance (F), Resistance (Ohms), Total Current (A)
6630.12402,-0.69754,0.00000,0.00000,7.33102E-5
6630.43652,-1.62955,4.22175E-10,432728.00000,6.97581E-5
6631.07910,2.11000,3.77302E-10,557934.00000,6.97813E-5
6631.72559,-3.34272,3.55034E-10,626314.00000,5.91466E-5
6632.36816,-4.33875,3.32165E-10,714730.00000,5.92293E-5
6633.01758,-5.33481,3.14552E-10,790410.00000,5.92835E-5
6633.65820,-6.33316,3.00226E-10,864646.00000,5.91999E-5
6634.31250,-7.33613,2.88013E-10,933148.00000,5.92066E-5
6634.96094,-8.33492,2.77325E-10,999034.00000,5.92545E-5
6635.60156,-9.33589,2.67707E-10,1.07346E+6,5.92924E-5
6636.24219,-10.33320,2.58835E-10,1.14576E+6,5.92212E-5
6636.88477,-11.33188,2.50563E-10,1.21681E+6,5.92132E-5
6637.52637,-12.33309,2.42635E-10,1.30191E+6,5.93225E-5
6638.16797,-13.33791,2.34844E-10,1.39027E+6,5.93748E-5
6638.82129,-14.34040,2.27126E-10,1.48682E+6,5.93655E-5
6639.46582,-15.34002,2.19263E-10,1.60155E+6,5.93062E-5
6640.10742,-16.34037,2.10947E-10,1.74877E+6,5.94029E-5
6640.75391,-17.34457,2.01898E-10,1.92249E+6,5.92691E-5
6641.39844,-18.34078,1.91408E-10,2.17564E+6,5.92502E-5
6642.05078,-19.34428,1.78075E-10,2.56042E+6,5.93901E-5
6642.69336,-20.34398,1.53920E-10,2.66909E+6,5.93487E-5
6643.34863,-21.34095,8.50008E-11,4.03965E+6,5.93197E-5
6644.03711,-22.06549,4.06291E-11,-3.97979E+7,6.01493E-5
6644.72559,-23.05927,9.97101E-12,-6.25581E+9,6.00049E-5
6645.39746,-24.05477,9.83878E-12,-1.71262E+8,6.00115E-5
6646.03906,-25.06602,9.82270E-12,-2.86027E+8,6.01833E-5
6646.67871,-26.04879,9.78968E-12,-5.05306E+8,6.00546E-5
6647.33008,-27.03688,9.75198E-12,-2.75396E+8,6.01697E-5
6647.97070,-28.04219,9.75864E-12,-3.97297E+8,6.01633E-5
6648.62207,-29.06785,9.74521E-12,-2.56082E+8,6.01626E-5
6649.26758,-30.05690,9.74560E-12,-7.38135E+8,6.02131E-5
6649.92188,-31.04620,9.72263E-12,-6.12216E+8,6.00241E-5
6650.56543,-32.04490,9.72131E-12,-1.55895E+8,6.02094E-5
6651.20508,-33.05654,9.73789E-12,-1.93794E+8,6.02199E-5
6651.84570,-34.04229,9.72881E-12,-7.52121E+8,6.00618E-5
6652.48828,-35.08057,9.71057E-12,-5.38141E+8,6.01958E-5
6653.13379,-36.05329,9.70863E-12,-9.88639E+8,6.03004E-5
6653.77637,-37.05780,9.70195E-12,-3.18094E+8,6.01014E-5
6654.43066,-38.06342,9.66288E-12,-4.04451E+8,6.03136E-5
6655.07227,-39.07222,9.73340E-12,-7.69480E+8,6.01781E-5
6655.72656,-40.07226,9.71708E-12,-3.79941E+8,6.01648E-5
6656.36816,-41.05743,9.64891E-12,-2.72586E+8,6.02849E-5
6657.02246,-42.07452,9.73917E-12,-4.29527E+8,6.02280E-5
6657.66895,-43.04891,9.69328E-12,-2.57763E+8,6.02526E-5
6658.30859,-44.06727,9.74808E-12,-3.41507E+8,6.02024E-5
6658.95898,-45.07044,9.69826E-12,-1.58745E+9,6.02390E-5
6659.59863,-46.05328,9.74537E-12,-9.72911E+8,6.04355E-5
6660.24121,-47.06632,9.69600E-12,-4.59090E+8,6.02410E-5
6660.88477,-48.07561,9.67582E-12,3.83979E+9,6.03673E-5
6661.52539,-49.06654,9.62919E-12,-3.26161E+8,6.04037E-5
6662.16992,-50.06036,9.66525E-12,-2.53765E+8,6.03089E-5
6662.80859,-51.07868,9.68000E-12,-4.33722E+8,6.03270E-5
6663.45020,-52.04760,9.69874E-12,1.17097E+9,6.02983E-5
6664.08984,-53.06739,9.67092E-12,-5.40554E+8,6.02879E-5
6664.73047,-54.05552,9.65028E-12,-4.18188E+9,6.02576E-5
6665.37305,-55.05721,9.67784E-12,-6.99393E+8,6.03837E-5
6666.01660,-56.06577,9.64700E-12,-1.99212E+8,6.03980E-5
6666.65625,-57.06532,9.66173E-12,-3.64494E+8,6.03840E-5
6667.29492,-58.05117,9.64603E-12,-4.29467E+8,6.03233E-5
6667.94336,-59.06746,9.65084E-12,-2.65256E+9,6.04254E-5
6668.58496,-60.06005,9.66281E-12,-2.85629E+8,6.04075E-5
6669.22559,-61.04130,9.68634E-12,-3.76576E+8,6.03566E-5
6669.87891,-62.06959,9.64626E-12,1.12354E+9,6.03890E-5
6670.52734,-63.07048,9.62798E-12,7.62156E+8,6.04212E-5
6671.17090,-64.05115,9.65696E-12,-3.30229E+8,6.03797E-5
6671.82129,-65.05650,9.60051E-12,-4.18634E+8,6.04922E-5
6672.46387,-66.08309,9.61735E-12,-1.16362E+9,6.04456E-5
6673.11230,-67.04028,9.62827E-12,-7.42882E+8,6.03570E-5
6673.75781,-68.05260,9.61325E-12,-2.52596E+8,6.03840E-5
6674.41211,-69.05279,9.64564E-12,-7.88552E+8,6.03585E-5
6675.05371,-70.05081,9.63517E-12,-3.59754E+8,6.05420E-5
6675.70508,-71.04885,9.69349E-12,-4.23323E+8,6.03505E-5
6676.35254,-72.06882,9.68780E-12,-3.89609E+8,6.03910E-5
6676.99316,-73.05746,9.61634E-12,8.91641E+8,6.03308E-5
6677.63379,-74.04877,9.64204E-12,-1.44161E+9,6.03628E-5
6678.27734,-75.05488,9.64108E-12,3.32983E+9,6.04412E-5
6678.93066,-76.04169,9.65266E-12,-2.61318E+8,6.03807E-5
6679.57422,-77.04593,9.62063E-12,-2.23516E+8,6.05320E-5
6680.21387,-78.07830,9.64481E-12,-4.00563E+8,6.04694E-5
6680.85645,-79.06069,9.65884E-12,-6.34387E+8,6.05837E-5
6681.49707,-80.05972,9.66129E-12,-5.40100E+8,6.04037E-5
6682.14063,-81.06548,9.62576E-12,-8.35812E+8,6.05176E-5
6682.78223,-82.05639,9.64313E-12,-4.80429E+8,6.04565E-5
6683.42676,-83.04852,9.63630E-12,-7.28157E+8,6.05082E-5
6684.07227,-84.06774,9.65225E-12,-3.33638E+8,6.03655E-5
6684.71777,-85.07790,9.65105E-12,-4.71021E+8,6.05031E-5
6685.36133,-86.04929,9.65444E-12,-4.19937E+8,6.03987E-5
6686.01367,-87.06517,9.64295E-12,3.50034E+8,6.05520E-5
6686.65527,-88.08355,9.64823E-12,-2.63779E+9,6.04551E-5
6687.29980,-89.06450,9.58797E-12,1.31360E+9,6.04835E-5
6687.94238,-90.06628,9.62814E-12,-2.23270E+8,6.05256E-5
6688.58594,-91.06086,9.62481E-12,-6.54187E+8,6.03930E-5
6689.22754,-92.05924,9.64581E-12,-8.84607E+8,6.04139E-5
6689.86914,-93.07574,9.62871E-12,-3.21283E+8,6.05316E-5
6690.51660,-94.08070,9.62812E-12,-3.06313E+8,6.05180E-5
6691.16016,-95.06502,9.61968E-12,-2.55913E+8,6.06407E-5
6691.81055,-96.07213,9.61882E-12,-3.03889E+8,6.05034E-5
6692.45508,-97.07735,9.66840E-12,-2.05313E+8,6.05386E-5
6693.10742,-98.07523,9.67280E-12,1.18944E+9,6.05481E-5
6693.75781,-99.07429,9.62239E-12,-4.30449E+8,6.03960E-5
6694.39746,-100.07317,9.66102E-12,6.76869E+8,6.03914E-5
6695.03711,-101.05558,9.60216E-12,-4.29913E+8,6.04855E-5
6695.67969,-102.06831,9.63130E-12,6.63882E+8,6.04767E-5
6696.32227,-103.07108,9.58580E-12,-3.48738E+8,6.05910E-5
6696.96680,-104.05107,9.63034E-12,6.67038E+9,6.04300E-5
6697.61719,-105.06852,9.64275E-12,-2.56082E+8,6.06456E-5
6698.25879,-106.08043,9.63622E-12,-3.00864E+8,6.04965E-5
6698.90527,-107.05148,9.59850E-12,-4.13468E+8,6.04590E-5
6699.54785,-108.07323,9.62061E-12,-1.38783E+10,6.05531E-5
6700.18848,-109.05814,9.65543E-12,-2.96403E+9,6.04877E-5
6700.83301,-110.04877,9.60213E-12,-3.38203E+9,6.05658E-5
6701.47461,-111.07104,9.62304E-12,-3.55179E+8,6.06179E-5
6702.11719,-112.06586,9.66248E-12,5.77562E+8,6.05286E-5
6702.76074,-113.05503,9.65850E-12,4.79158E+8,6.04842E-5
6703.41113,-114.07357,9.59156E-12,6.14638E+7,6.06377E-5
6704.05273,-115.06593,9.72151E-12,1.61769E+7,6.05896E-5
6704.69434,-116.04083,1.42946E-11,1.25901E+6,5.99196E-5
6705.33496,-117.06583,-2.55878E-10,17681.00000,-5.55182E-5
6706.06152,-117.02697,-6.19321E-11,6633.46000,-6.30465E-5
6706.77051,-116.97517,4.37463E-10,5752.23000,-6.89365E-5
6707.45703,-116.94788,-9.24377E-12,7021.48000,-7.41198E-5
