Timestamp (s),Voltage (V),SourceMeter Total Current (A), Pad PicoAmmeter Current (A), GR Calculated Current (A)
BEGIN
1436.50781,-2.56441E-5,4.78072E-11,3.02906E-9,-2.98126E-9
1437.57617,-1.00015,-1.51879E-10,2.85880E-9,-3.01068E-9
1439.45605,-2.00013,-1.99748E-10,2.10437E-9,-2.30412E-9
1440.10547,-3.00145,-2.83210E-10,2.45712E-9,-2.74033E-9
1440.74707,-4.00125,-3.46574E-10,2.28178E-9,-2.62835E-9
1441.38770,-5.00149,-4.23948E-10,2.73583E-9,-3.15978E-9
1443.26855,-6.00156,-4.19888E-10,-1.06670E-9,6.46815E-10
1444.32813,-7.00135,-4.80975E-10,-9.01025E-10,4.20050E-10
1444.96875,-8.00145,-5.10725E-10,-1.04148E-9,5.30750E-10
1445.61328,-9.00161,-5.62360E-10,-9.82744E-10,4.20385E-10
1446.25195,-10.00132,-6.07060E-10,-1.17875E-9,5.71688E-10
1446.89941,-11.00142,-6.87602E-10,-1.00491E-9,3.17311E-10
1447.54297,-12.00153,-7.00223E-10,-1.00425E-9,3.04028E-10
1448.18750,-13.00127,-7.47698E-10,-8.50255E-10,1.02557E-10
1448.82910,-14.00138,-7.96954E-10,-1.06530E-9,2.68349E-10
1449.47266,-15.00121,-8.69973E-10,-9.13421E-10,4.34481E-11
1450.12207,-16.00122,-9.19225E-10,-1.01858E-9,9.93560E-11
1450.76465,-17.00132,-9.35216E-10,-1.04700E-9,1.11784E-10
1451.41211,-18.00107,-1.00304E-9,-9.85127E-10,-1.79096E-11
1452.05469,-19.00106,-1.01843E-9,-9.12009E-10,-1.06421E-10
1452.69531,-20.00121,-1.09343E-9,-9.61236E-10,-1.32191E-10
1453.33691,-21.00096,-1.13313E-9,1.92341E-9,-3.05654E-9
1453.97949,-22.06525,-1.38495E-9,2.48043E-9,-3.86538E-9
1455.45215,-23.07034,-1.33892E-9,2.05473E-9,-3.39364E-9
1456.51270,-24.05818,-9.16109E-10,2.09256E-9,-3.00867E-9
1457.15527,-25.06523,-1.08605E-9,-9.07032E-10,-1.79020E-10
1457.79688,-26.07063,-1.63623E-9,-1.11535E-9,-5.20881E-10
1458.43652,-27.05744,-1.08516E-9,-7.59742E-10,-3.25418E-10
1459.08105,-28.06331,-1.07704E-9,2.09255E-9,-3.16959E-9
1459.72363,-29.06930,-1.29946E-9,2.03581E-9,-3.33527E-9
1460.36816,-30.05896,-1.33114E-9,-8.70841E-10,-4.60301E-10
1461.01074,-31.06602,-1.74519E-9,-8.28336E-10,-9.16852E-10
1461.65430,-32.06996,-1.74177E-9,-7.73695E-10,-9.68075E-10
1462.29590,-33.05788,-1.32382E-9,2.40476E-9,-3.72857E-9
1463.76758,-34.06395,-1.27684E-9,2.01690E-9,-3.29374E-9
1464.82520,-35.06762,-1.41965E-9,2.06419E-9,-3.48384E-9
1465.46680,-36.05899,-1.40906E-9,-1.04187E-9,-3.67194E-10
1466.10938,-37.06620,-1.70924E-9,-8.83142E-10,-8.26103E-10
1466.75098,-38.07238,-2.08517E-9,1.20649E-9,-3.29167E-9
1467.39551,-39.07964,-2.01691E-9,1.98853E-9,-4.00543E-9
1468.03809,-40.06763,-2.05532E-9,2.36692E-9,-4.42224E-9
1469.50879,-41.06996,-2.00241E-9,2.05473E-9,-4.05714E-9
1470.57031,-42.07792,-1.60227E-9,2.04527E-9,-3.64754E-9
1471.21191,-43.06640,-2.02364E-9,-8.53102E-10,-1.17054E-9
1471.85449,-44.07285,-2.05037E-9,-9.52853E-10,-1.09751E-9
1472.49707,-45.07761,-1.84771E-9,2.31016E-9,-4.15787E-9
1473.96875,-46.06450,-1.77865E-9,1.92231E-9,-3.70096E-9
1475.02344,-47.07145,-2.28893E-9,1.39267E-9,-3.68160E-9
1475.66602,-48.07877,-2.31209E-9,-9.28713E-10,-1.38338E-9
1476.30762,-49.06669,-1.84142E-9,-9.91826E-10,-8.49593E-10
1476.95020,-50.06918,-2.22373E-9,1.97906E-9,-4.20279E-9
1477.58984,-51.07634,-2.03310E-9,1.99799E-9,-4.03109E-9
1478.22949,-52.06413,-2.28967E-9,-1.01921E-9,-1.27046E-9
1478.87207,-53.06874,-2.01795E-9,-7.57717E-10,-1.26024E-9
1479.51563,-54.07651,-2.27031E-9,9.56836E-10,-3.22715E-9
1480.16016,-55.06572,-2.48367E-9,2.02636E-9,-4.51003E-9
1480.80566,-56.06942,-2.48313E-9,1.96961E-9,-4.45274E-9
1481.44824,-57.07957,-2.78035E-9,-1.00854E-9,-1.77181E-9
1482.09082,-58.06499,-2.51357E-9,-9.64847E-10,-1.54873E-9
1482.73438,-59.07061,-2.50550E-9,-5.48839E-10,-1.95666E-9
1483.37695,-60.07568,-2.32734E-9,1.96015E-9,-4.28749E-9
1484.01953,-61.06273,-2.34472E-9,2.01690E-9,-4.36161E-9
1484.66211,-62.06936,-2.42902E-9,-9.56511E-10,-1.47251E-9
1485.30664,-63.07520,-2.44130E-9,-8.49617E-10,-1.59168E-9
1485.94922,-64.06396,-2.54129E-9,1.91285E-9,-4.45414E-9
1486.59082,-65.06717,-2.99336E-9,1.87503E-9,-4.86839E-9
1487.23535,-66.07623,-2.92623E-9,-2.17492E-10,-2.70874E-9
1487.87891,-67.06367,-2.94890E-9,-8.62679E-10,-2.08622E-9
1488.52246,-68.06847,-3.05791E-9,-1.10373E-9,-1.95418E-9
1489.16699,-69.07570,-2.89658E-9,1.89394E-9,-4.79051E-9
1489.81152,-70.06033,-2.86792E-9,1.82774E-9,-4.69566E-9
1490.45410,-71.06721,-3.06449E-9,-7.67716E-10,-2.29678E-9
1491.09863,-72.07395,-3.04999E-9,-9.55265E-10,-2.09472E-9
1491.74219,-73.06395,-3.42809E-9,1.37167E-9,-4.79976E-9
1492.38281,-74.06562,-2.95970E-9,1.62912E-9,-4.58882E-9
1493.02344,-75.07581,-3.44111E-9,-6.85725E-10,-2.75539E-9
1493.66699,-76.06476,-3.64422E-9,-1.00079E-9,-2.64344E-9
1494.31152,-77.06922,-3.70368E-9,-1.18879E-9,-2.51488E-9
1494.95508,-78.07685,-3.68575E-9,1.78044E-9,-5.46619E-9
1495.59863,-79.06286,-3.66888E-9,1.50617E-9,-5.17504E-9
1496.24023,-80.06876,-3.32032E-9,-1.00527E-9,-2.31505E-9
1496.88379,-81.07529,-3.60804E-9,-9.98726E-10,-2.60931E-9
1497.52344,-82.06207,-4.08406E-9,1.49670E-9,-5.58076E-9
1498.16504,-83.06892,-4.21558E-9,1.45888E-9,-5.67446E-9
1498.80762,-84.07425,-4.26707E-9,-1.44774E-9,-2.81933E-9
1499.45215,-85.08261,-4.43434E-9,-1.40675E-9,-3.02759E-9
1500.09473,-86.06898,-4.47429E-9,1.16803E-9,-5.64233E-9
1500.73828,-87.07538,-4.70706E-9,8.63016E-10,-5.57007E-9
1501.38086,-88.07964,-4.87210E-9,-2.02849E-9,-2.84361E-9
1502.02441,-89.06586,-5.51826E-9,5.12902E-10,-6.03116E-9
1503.49805,-90.07404,-6.11166E-9,-3.28335E-9,-2.82831E-9
1504.13867,-91.08018,-8.31795E-9,-3.85909E-9,-4.45886E-9
1504.78027,-92.06869,-1.38270E-8,-8.06465E-9,-5.76232E-9
1505.42480,-93.07456,-3.29566E-8,-2.93828E-8,-3.57377E-9
1506.84180,-94.08375,-1.71504E-7,-1.66980E-7,-4.52358E-9
1507.48535,-94.65417,-1.00002E-6,-9.98584E-7,-1.43133E-9
